DU=C:/Bruker/XWIN-NMR, USER=cui, NAME=expnmr_00233, EXPNO=1, PROCNO=1
F1=5.505ppm, F2=2.905ppm, MI=0.50cm, MAXI=36.00cm, PC=4.000
     #     ADDRESS            FREQUENCY         INTENSITY
                           [Hz]        [PPM]
     1     15203.7     2095.924       5.2381         2.22
     2     15228.8     2092.236       5.2289         2.28
     3     15902.1     1993.449       4.9820         4.07
     4     15924.6     1990.156       4.9738         5.50
     5     16741.6     1870.285       4.6742         4.22
     6     16795.8     1862.330       4.6543         4.23
     7     18558.6     1603.699       4.0079         2.07
     8     18614.0     1595.568       3.9876         7.87
     9     18651.5     1590.067       3.9739         5.21
    10     18692.5     1584.052       3.9588         4.88
    11     18736.9     1577.531       3.9425         3.01
    12     18768.6     1572.890       3.9309         2.12
    13     18845.8     1561.562       3.9026         1.95
    14     18916.3     1551.219       3.8768         3.51
    15     18935.1     1548.449       3.8699         3.63
    16     19045.5     1532.261       3.8294         4.25
    17     19070.4     1528.604       3.8203         4.01
    18     19115.6     1521.980       3.8037         2.11
    19     19140.7     1518.289       3.7945         2.17
    20     19222.9     1506.223       3.7643         2.64
    21     19290.9     1496.260       3.7394        12.50
    22     19332.0     1490.218       3.7243         8.85
    23     19387.0     1482.158       3.7042         2.68
    24     19451.1     1472.750       3.6807         2.06
    25     19586.7     1452.853       3.6310         1.56
    26     19808.7     1420.288       3.5496         1.50
    27     19834.3     1416.519       3.5401         1.60
    28     19874.7     1410.599       3.5254         2.33
    29     19920.2     1403.920       3.5087         3.81
    30     19945.7     1400.180       3.4993         3.34
    31     19965.7     1397.245       3.4920         3.93
    32     20008.4     1390.984       3.4763         3.88
    33     20070.0     1381.938       3.4537         0.97
    34     20580.0     1307.122       3.2667         1.62
    35     20636.9     1298.769       3.2459         2.50
    36     20695.3     1290.200       3.2245         1.26
